<?xml version="1.0" encoding="UTF-8"?>
<Bundle xmlns="http://hl7.org/fhir"
    xmlns:xsi="http://www.w3.org/2001/XMLSchema-instance"
    xsi:schemaLocation="http://hl7.org/fhir ../../src-generated/schemas/fhir-single.xsd">
    <id value="pa-request-example-referral"/>
    <identifier>
        <system value="http://example.org/SUBMITTER_TRANSACTION_IDENTIFIER"/>
        <value value="A12345"/>
    </identifier>
    <type value="collection"/>
    <timestamp value="2005-05-02T11:01:00+05:00"/>
    <entry>
        <fullUrl value="http://example.org/fhir/Claim/1"/>
        <resource>
            <Claim>
                <id value="1"/>
                <identifier>
                    <system value="http://example.org/PATIENT_EVENT_TRACE_NUMBER"/>
                    <value value="111099"/>
                    <assigner>
                        <reference value="Organization/3"/>
                    </assigner>
                </identifier>
                <status value="active"/>
                <type>
                    <coding>
                        <system value="http://example.org/UM_REQUEST_CATEGORY_CODE"/>
                        <code value="SC"/>
                        <display value="Specialty Care Review"/>
                    </coding>
                </type>
                <use value="preauthorization">
                    <extension url="http://hl7.org/fhir/us/davinci-pas/StructureDefinition/extension-certificationType">
                        <valueCode value="I"/>
                    </extension>
                </use>
                <patient>
                    <reference value="Patient/1"/>
                </patient>
                <created value="2019-07-20"/>
                <insurer>
                    <reference value="Organization/1"/>
                </insurer>
                <provider>
                    <reference value="PractitionerRole/1"/>
                </provider>
                <priority>
                    <coding>
                        <system value="http://terminology/hl7.org/CodeSystem/processpriority"/>
                        <code value="normal"/>
                        <display value="Normal"/>
                    </coding>
                </priority>
                <prescription>
                    <extension url="http://hl7.org/fhir/us/davinci-pas/StructureDefinition/extension-requestedService">
                        <valueReference>
                            <reference value="ServiceRequest/1"/>
                        </valueReference>
                    </extension>
                    <display value="see requested service extension"/>
                </prescription>
                <facility>
                    <reference value="Location/1"/>
                </facility>
                <diagnosis>
                    <sequence value="1"/>
                    <diagnosisReference>
                        <reference value="Condition/1"/>
                    </diagnosisReference>
                </diagnosis>
                <insurance>
                    <sequence value="1"/>
                    <focal value="true"/>
                    <coverage>
                        <reference value="Coverage/1"/>
                    </coverage>
                </insurance>
            </Claim>
        </resource>
    </entry>
    <entry>
        <fullUrl value="http://example.org/fhir/Organization/1"/>
        <resource>
            <Organization>
                <id value="1"/>
                <identifier>
                    <type>
                        <coding>
                            <system value="http://example.org/IDENTIFICATION_CODE_QUALIFIER"/>
                            <code value="46"/>
                            <display value="ETIN"/>
                        </coding>
                    </type>
                    <system value="http://example.org/ETIN"/>
                    <value value="789312"/>
                </identifier>
                <type>
                    <coding>
                        <system value="http://example.org/ENTITY_IDENTIFIER_CODE"/>
                        <code value="X3"/>
                        <display value="Utilization Management Organization"/>
                    </coding>
                </type>
                <name value="MARYLAND CAPITAL INSURANCE COMPANY"/>
            </Organization>
        </resource>
    </entry>
    <entry>
        <fullUrl value="http://example.org/fhir/PractitionerRole/1"/>
        <resource>
            <PractitionerRole>
                <id value="1"/>
                <practitioner>
                    <reference value="Practitioner/1"/>
                </practitioner>
                <code>
                    <coding>
                        <system value="http://example.org/ENTITY_IDENTIFIER_CODE"/>
                        <code value="1P"/>
                        <display value="Provider"/>
                    </coding>
                </code>
            </PractitionerRole>
        </resource>
    </entry>
    <entry>
        <fullUrl value="http://example.org/fhir/Practitioner/1"/>
        <resource>
            <Practitioner>
                <id value="1"/>
                <identifier>
                    <type>
                        <coding>
                            <system value="http://example.org/IDENTIFICATION_CODE_QUALIFIER"/>
                            <code value="46"/>
                            <display value="ETIN"/>
                        </coding>
                    </type>
                    <system value="http://example.org/ETIN"/>
                    <value value="8189991234"/>
                </identifier>
                <name>
                    <family value="GARDENER"/>
                    <given value="JAMES"/>
                </name>
            </Practitioner>
        </resource>
    </entry>
    <entry>
        <fullUrl value="http://example.org/fhir/Coverage/1"/>
        <resource>
            <Coverage>
                <id value="1"/>
                <status value="active"/>
                <!-- This is actual the subscriber but beneficiary is mandatory -->
                <beneficiary>
                    <reference value="Patient/1"/>
                </beneficiary>
                <!-- Payor is mandatory but we don't actually have one so the insurer organization is specified here -->
                <payor>
                    <reference value="Organization/1"/>
                </payor>
            </Coverage>
        </resource>
    </entry>
    <entry>
        <fullUrl value="http://example.org/fhir/Patient/1"/>
        <resource>
            <Patient>
                <id value="1"/>
                <identifier>
                    <type>
                        <coding>
                            <system value="http://example.org/IDENTIFICATION_CODE_QUALIFIER"/>
                            <code value="MI"/>
                            <display value="Member Identification Number"/>
                        </coding>
                    </type>
                    <system value="http://example.org/MIN"/>
                    <value value="12345678901"/>
                </identifier>
                <name>
                    <family value="SMITH"/>
                    <given value="JOE"/>
                </name>
            </Patient>
        </resource>
    </entry>
    <entry>
        <fullUrl value="http://example.org/fhir/Organization/3"/>
        <resource>
            <Organization>
                <id value="3"/>
                <identifier>
                    <system value="http://example.org/USER_ASSIGNED"/>
                    <value value="9012345678"/>
                </identifier>
            </Organization>
        </resource>
    </entry>
    <entry>
        <fullUrl value="http://example.org/fhir/ServiceRequest/1"/>
        <resource>
            <ServiceRequest>
                <id value="1"/>
                <status value="active"/>
                <intent value="plan"/>
                <code>
                    <coding>
                        <system value="http://example.org/SERVICE_TYPE_CODE"/>
                        <code value="3"/>
                        <display value="Consultation"/>
                    </coding>
                </code>
                <quantityQuantity>
                    <value value="1"/>
                    <unit value="VS"/>
                </quantityQuantity>
                <subject>
                    <reference value="Patient/1"/>
                </subject>
                <performer>
                    <reference value="PractitionerRole/2"/>
                </performer>
            </ServiceRequest>
        </resource>
    </entry>
    <entry>
        <fullUrl value="http://example.org/fhir/Location/1"/>
        <resource>
            <Location>
                <id value="1"/>
                <type>
                    <coding>
                        <system value="http://example.org/Place-of-Service-Codes"/>
                        <code value="11"/>
                    </coding>
                </type>
            </Location>
        </resource>
    </entry>
    <entry>
        <fullUrl value="http://example.org/fhir/Condition/1"/>
        <resource>
            <Condition>
                <id value="1"/>
                <code>
                    <coding>
                        <system value="http://hl7.org/fhir/sid/icd-9"/>
                        <code value="410.90"/>
                    </coding>
                </code>
                <subject>
                    <reference value="Patient/1"/>
                </subject>
                <recordedDate value="2005-04-30"/>
            </Condition>
        </resource>
    </entry>
    <entry>
        <fullUrl value="http://example.org/fhir/PractitionerRole/2"/>
        <resource>
            <PractitionerRole>
                <id value="2"/>
                <practitioner>
                    <reference value="Practitioner/2"/>
                </practitioner>
                <code>
                    <coding>
                        <system value="http://example.org/ENTITY_IDENTIFIER_CODE"/>
                        <code value="SJ"/>
                        <display value="Service Provider"/>
                    </coding>
                </code>
            </PractitionerRole>
        </resource>
    </entry>
    <entry>
        <fullUrl value="http://example.org/fhir/Practitioner/2"/>
        <resource>
            <Practitioner>
                <id value="2"/>
                <identifier>
                    <type>
                        <coding>
                            <system value="http://example.org/IDENTIFICATION_CODE_QUALIFIER"/>
                            <code value="34"/>
                            <display value="SSN"/>
                        </coding>
                    </type>
                    <system value="http://example.org/SSN"/>
                    <value value="987654321"/>
                </identifier>
                <name>
                    <family value="WATSON"/>
                    <given value="SUSAN"/>
                </name>
                <telecom>
                    <system value="phone"/>
                    <value value="4029993456"/>
                </telecom>
            </Practitioner>
        </resource>
    </entry>
</Bundle>